Folder: Material_Science_Tensile

Note: README.md
# Material_Science_Tensile

File: Aluminum tensile test.asc
Load	Stroke	Strain	Time
470	0.103600	0.057000	0.001667
470	0.103600	0.059000	0.016017
471	0.103600	0.058000	0.030233
469	0.103600	0.060000	0.045050
470	0.103600	0.056000	0.058250
469	0.103600	0.059000	0.073117
487	0.104100	0.054000	0.088300
564	0.106200	0.073000	0.107933
635	0.108000	0.083000	0.126250
688	0.109500	0.095000	0.141550
755	0.111000	0.102000	0.157433
811	0.112800	0.111000	0.174400
875	0.114300	0.126000	0.190567
934	0.115800	0.134000	0.205083
987	0.117300	0.140000	0.220250
1048	0.118900	0.154000	0.234633
1102	0.120100	0.160000	0.249117
1166	0.121700	0.176000	0.262950
1218	0.122900	0.181000	0.277450
1281	0.124500	0.197000	0.291283
1333	0.126000	0.205000	0.305183
1377	0.127300	0.214000	0.319017
1430	0.128500	0.229000	0.332817
1488	0.129800	0.239000	0.346067
1539	0.131300	0.254000	0.360050
1592	0.132800	0.265000	0.374367
1643	0.134100	0.287000	0.388067
1686	0.135600	0.298000	0.401250
1729	0.136900	0.319000	0.415300
1772	0.138200	0.339000	0.429033
1814	0.139700	0.363000	0.442717
1840	0.141000	0.390000	0.456517
1868	0.142200	0.419000	0.469100
1886	0.143500	0.453000	0.482350
1911	0.145000	0.493000	0.496367
1928	0.146600	0.547000	0.510317
1951	0.147800	0.604000	0.523550
1958	0.148800	0.651000	0.536150
1940	0.149600	0.692000	0.549600
1930	0.149600	0.701000	0.564350
1922	0.149600	0.705000	0.579217
1919	0.149600	0.707000	0.592533
1914	0.149600	0.709000	0.607183
1912	0.149900	0.652000	0.621417
1911	0.149900	0.110000	0.636117
1908	0.149900	0.260000	0.649383
1906	0.149900	0.059000	0.664150
1905	0.149900	-0.039000	0.678683
1904	0.149900	-0.060000	0.691200
1903	0.149900	-0.201000	0.705600
1903	0.149900	-0.202000	0.720233
1903	0.149900	-0.199000	0.734867
1905	0.150100	-0.203000	0.748250
1985	0.151600	-0.202000	0.761583
1984	0.152900	-0.203000	0.776300
1993	0.154400	-0.204000	0.789917
1991	0.155700	-0.202000	0.803667
2001	0.157000	-0.200000	0.817067
2006	0.158500	-0.204000	0.830433
2008	0.159800	-0.204000	0.843667
2015	0.161000	-0.203000	0.857717
2024	0.162600	-0.205000	0.871050
2035	0.163800	-0.201000	0.883900
2032	0.165100	-0.205000	0.897800
2032	0.166400	-0.204000	0.911233
2045	0.167900	-0.204000	0.924750
2058	0.169200	-0.202000	0.937450
2048	0.170400	-0.203000	0.951567
2058	0.172000	-0.204000	0.965717
2068	0.173200	-0.201000	0.978950
2062	0.174500	-0.205000	0.992150
2079	0.176000	-0.204000	1.005433
2083	0.177300	-0.204000	1.018800
2089	0.178600	-0.205000	1.032017
2097	0.179800	-0.199000	1.045417
2097	0.181400	-0.204000	1.059167
2103	0.182600	-0.202000	1.071800
2103	0.183900	-0.202000	1.085033
2108	0.185200	-0.203000	1.098217
2111	0.186400	-0.200000	1.111450
2112	0.187700	-0.203000	1.124133
2121	0.189200	-0.205000	1.137483
2125	0.190500	-0.202000	1.151550
2127	0.192000	-0.204000	1.165767
2132	0.193300	-0.200000	1.180017
2128	0.194600	-0.203000	1.194350
2139	0.196100	-0.201000	1.207033
2149	0.197600	-0.203000	1.221417
2147	0.198900	-0.202000	1.235800
2143	0.200400	-0.203000	1.250683
2149	0.201700	-0.203000	1.263983
2157	0.203200	-0.201000	1.277200
2163	0.204500	-0.203000	1.289867
2157	0.205700	-0.205000	1.303150
2169	0.207000	-0.203000	1.316283
2158	0.208300	-0.206000	1.329600
2179	0.209600	-0.200000	1.342300
2177	0.210800	-0.203000	1.356183
2165	0.212300	-0.205000	1.369517
2185	0.213900	-0.198000	1.383933
2175	0.214900	-0.204000	1.398267
2188	0.216700	-0.201000	1.411750
2195	0.217900	-0.203000	1.424517
2188	0.219200	-0.201000	1.438033
2196	0.220700	-0.203000	1.452383
2197	0.222000	-0.203000	1.466533
2196	0.223300	-0.200000	1.480333
2197	0.224800	-0.205000	1.493067
2197	0.226100	-0.209000	1.506533
2206	0.227600	-0.201000	1.520217
2202	0.228900	-0.206000	1.533650
2210	0.230100	-0.201000	1.546350
2206	0.231400	-0.207000	1.560167
2211	0.232900	-0.205000	1.573650
2210	0.234200	-0.202000	1.586900
2222	0.235500	-0.203000	1.600383
2204	0.236700	-0.206000	1.613167
2222	0.238000	-0.203000	1.626667
2223	0.239500	-0.203000	1.640350
2230	0.241000	-0.205000	1.654433
2221	0.242100	-0.204000	1.667850
2223	0.243300	-0.204000	1.680833
2232	0.244900	-0.202000	1.694100
2228	0.246100	-0.202000	1.707333
2236	0.247700	-0.201000	1.720750
2234	0.248900	-0.201000	1.734500
2235	0.250200	-0.201000	1.747550
2241	0.251500	-0.198000	1.761233
2244	0.253000	-0.204000	1.774783
2244	0.254300	-0.200000	1.788167
2245	0.255500	-0.202000	1.801183
2239	0.256800	-0.201000	1.814850
2247	0.258300	-0.199000	1.829100
2247	0.259800	-0.205000	1.842467
2250	0.261100	-0.200000	1.856483
2252	0.262400	-0.203000	1.869233
2242	0.263700	-0.205000	1.882650
2246	0.264900	-0.199000	1.895900
2256	0.266400	-0.202000	1.909150
2248	0.267700	-0.203000	1.923333
2257	0.269200	-0.199000	1.936150
2252	0.270500	-0.202000	1.949567
2259	0.271800	-0.201000	1.963000
2258	0.273300	-0.203000	1.976583
2258	0.274600	-0.204000	1.990117
2259	0.275800	-0.201000	2.002867
2260	0.277400	-0.205000	2.016550
2266	0.278600	-0.202000	2.030350
2253	0.279900	-0.206000	2.044033
2254	0.281400	-0.203000	2.058350
2267	0.282700	-0.202000	2.071333
2265	0.284000	-0.199000	2.084733
2268	0.285200	-0.203000	2.098167
2263	0.286500	-0.201000	2.111817
2264	0.288000	-0.206000	2.125333
2267	0.289300	-0.202000	2.138117
2262	0.290600	-0.201000	2.151617
2265	0.292100	-0.204000	2.166033
2268	0.293400	-0.204000	2.179567
2260	0.294600	-0.205000	2.192883
2273	0.296200	-0.200000	2.205800
2268	0.297400	-0.201000	2.219483
2265	0.298700	-0.202000	2.232967
2276	0.300200	-0.200000	2.247000
2272	0.301500	-0.199000	2.259967
2252	0.302800	-0.207000	2.273283
2270	0.304300	-0.204000	2.286817
2268	0.305600	-0.207000	2.300517
2265	0.306800	-0.202000	2.314083
2252	0.308100	-0.204000	2.327350
2269	0.309600	-0.203000	2.341017
2261	0.310600	-0.197000	2.354683
2260	0.312400	-0.204000	2.368200
2259	0.313700	-0.202000	2.381617
2277	0.315000	-0.200000	2.394433
2263	0.316200	-0.203000	2.408100
2256	0.317800	-0.202000	2.421433
2256	0.319000	-0.207000	2.434800
2263	0.320300	-0.204000	2.447550
2248	0.321600	-0.205000	2.461783
2251	0.323100	-0.206000	2.475150
2267	0.324400	-0.201000	2.488650
2251	0.325600	-0.205000	2.502283
2259	0.327200	-0.205000	2.515300
2252	0.328400	-0.205000	2.528950
2248	0.329700	-0.204000	2.542467
2259	0.331200	-0.201000	2.555850
2255	0.332500	-0.204000	2.569567
2249	0.333800	-0.201000	2.582633
2246	0.335000	-0.202000	2.596133
2247	0.336600	-0.205000	2.609667
2241	0.337800	-0.203000	2.623283
2240	0.339100	-0.204000	2.636350
2239	0.340600	-0.200000	2.650467
2233	0.341900	-0.202000	2.664150
2229	0.343400	-0.203000	2.677767
2229	0.344700	-0.202000	2.691533
2218	0.345900	-0.205000	2.704600
2223	0.347200	-0.199000	2.717967
2217	0.348700	-0.201000	2.731467
2205	0.350000	-0.204000	2.745117
2208	0.351300	-0.202000	2.758683
2201	0.352600	-0.202000	2.771517
2197	0.354100	-0.205000	2.784950
2196	0.355300	-0.203000	2.798617
2182	0.356600	-0.202000	2.812383
2179	0.358100	-0.202000	2.825450
2163	0.359400	-0.204000	2.838883
2164	0.360900	-0.206000	2.852883
2157	0.362200	-0.201000	2.867283
2151	0.363700	-0.202000	2.881550
2134	0.365000	-0.203000	2.896050
2122	0.366500	-0.203000	2.909067
2108	0.367800	-0.204000	2.922650
2106	0.369300	-0.202000	2.936300
2087	0.370300	-0.200000	2.949833
2074	0.371900	-0.208000	2.963600
2050	0.373100	-0.202000	2.976683
2038	0.374700	-0.200000	2.991183
57	0.385100	-0.209000	3.004667
-92	0.377400	-0.203000	3.019400
-93	0.378700	-0.203000	3.033033
-90	0.378700	-0.199000	3.046150
-91	0.378700	-0.201000	3.061083
-90	0.378700	-0.201000	3.076283
-91	0.378700	-0.200000	3.089750
-91	0.378700	-0.202000	3.104850
-91	0.378700	-0.199000	3.119967
-90	0.378700	-0.201000	3.134417
-91	0.378700	-0.197000	3.148083
-91	0.378700	-0.201000	3.162983
-92	0.378700	-0.201000	3.178150
-90	0.378700	-0.199000	3.193500
-92	0.378700	-0.201000	3.207083
-92	0.378700	-0.202000	3.221600
-91	0.378700	-0.200000	3.236483
-91	0.378700	-0.202000	3.251550
-91	0.378700	-0.200000	3.265317
-91	0.378700	-0.202000	3.280333
-91	0.378700	-0.200000	3.295317
-91	0.378700	-0.200000	3.310250
-91	0.378700	-0.199000	3.323067
-90	0.378700	-0.201000	3.337900
-91	0.378700	-0.200000	3.353033
-91	0.378700	-0.201000	3.366383
-91	0.378700	-0.200000	3.381433
-90	0.378700	-0.199000	3.396517
-91	0.378700	-0.200000	3.410900
-91	0.378700	-0.200000	3.424333
-92	0.378700	-0.200000	3.439283
-91	0.378700	-0.202000	3.454583
-91	0.378700	-0.201000	3.469567
-91	0.378700	-0.201000	3.483167
-91	0.378700	-0.199000	3.498100
-91	0.378700	-0.201000	3.513217
-91	0.378700	-0.201000	3.528017
-90	0.378700	-0.202000	3.541550
-92	0.378700	-0.202000	3.556633
-91	0.378700	-0.202000	3.571883
-91	0.378700	-0.201000	3.586967
-91	0.378700	-0.203000	3.599817
-91	0.378700	-0.200000	3.614717
-91	0.378700	-0.199000	3.629467
-91	0.378700	-0.199000	3.642833
-91	0.378700	-0.199000	3.658083
-91	0.378700	-0.201000	3.673450
-92	0.378700	-0.202000	3.686283
-92	0.378700	-0.199000	3.701167
-92	0.378700	-0.202000	3.715500
-91	0.378700	-0.200000	3.728883
-92	0.378700	-0.199000	3.742800
-92	0.378700	-0.199000	3.757217
-91	0.378700	-0.201000	3.772350
-91	0.378700	-0.200000	3.786183
-91	0.378700	-0.201000	3.799850
-91	0.378700	-0.199000	3.814800
-91	0.378700	-0.199000	3.828317
-92	0.378700	-0.202000	3.842133
-91	0.378700	-0.200000	3.856450
-91	0.378700	-0.202000	3.870117
-91	0.378700	-0.196000	3.885000
-91	0.378700	-0.200000	3.899900
-91	0.378700	-0.202000	3.912900
-90	0.378700	-0.202000	3.924233